Folder: xas-spectrum-structure-bench/exp_xaslib/raw (part 2)

File: V metal.xdi
#XDI/1.0  XASDataLibrary/1.0
# Column.1: energy eV
# Column.2: i0
# Column.3: itrans
# Mono.d_spacing: 3.134770
# Mono.name: generic Si(111)
# Beamline.name: APS 13-ID-E
# Element.symbol: V
# Element.edge: K
# Data.upload_date: 2020-05-17 07:41:55
# Data.submitted_by: Matt Newville
# Sample.name: V foil
# Sample.formula: V
# Sample.preparation: metal foil, Joe Wong box set
# Sample.notes: sample for 'V_foil.xdi', uploaded 2020-05-07 19:57:38
# Reference.mode: no reference spectra
# ///
#
#-----------------------
#   energy         i0            itrans
 5415   108327   88173
 5425   136142   112031
 5435   140857   116888
 5445   143142   119505
 5455   152676   127328
 5460.1   159002   129556
 5460.3   139810   113552
 5460.5   138852   112447
 5460.7   137074   110663
 5460.9   136288   109655
 5461.1   136367   109263
 5461.3   136422   108782
 5461.5   136724   108341
 5461.7   136548   107414
 5461.9   136193   106231
 5462.1   136092   104989
 5462.3   136586   103926
 5462.5   136843   102260
 5462.7   136885   99858
 5462.9   137301   96809
 5463.1   136162   91381
 5463.3   135948   84815
 5463.5   136258   76644
 5463.7   136459   67136
 5463.9   136451   58036
 5464.1   136376   51143
 5464.3   136329   47673
 5464.5   136306   47289
 5464.7   136423   48705
 5464.9   136203   50571
 5465.1   136326   52395
 5465.3   136027   53535
 5465.5   135744   54061
 5465.7   136039   54229
 5465.9   136251   53814
 5466.1   136068   52702
 5466.3   135605   51149
 5466.5   135126   49453
 5466.7   135388   47984
 5466.9   135363   46422
 5467.1   135100   44776
 5467.3   135287   43299
 5467.5   134800   41642
 5467.7   135135   40329
 5467.9   134944   38930
 5468.1   134228   37534
 5468.3   134531   36578
 5468.5   134367   35654
 5468.7   134315   34869
 5468.9   133933   34162
 5469.1   133880   33650
 5469.3   133809   33269
 5469.5   133702   32950
 5469.7   133295   32624
 5469.9   132413   32237
 5470.1   132589   32134
 5470.3   132094   31876
 5470.5   132316   31797
 5470.7   132229   31609
 5470.9   132432   31423
 5471.1   132408   31065
 5471.3   132472   30591
 5471.5   132275   29910
 5471.7   129436   28503
 5471.9   131567   28029
 5472.1   131588   26983
 5472.3   131559   25850
 5472.5   131359   24650
 5472.7   131327   23498
 5472.9   131417   22405
 5473.1   131236   21348
 5473.3   130824   20345
 5473.5   131091   19509
 5473.7   131293   18728
 5473.9   131162   17971
 5474.1   131171   17296
 5474.3   131513   16721
 5474.5   131557   16186
 5474.7   131095   15598
 5474.9   130681   15054
 5475.63   131349   13554
 5476.94   131686   11218
 5478.33   132657   9402
 5479.8   132991   7901
 5481.34   133195   6798
 5482.96   133413   6150
 5484.66   134661   7286
 5486.43   135469   8922
 5488.28   135727   9204
 5490.2   136470   8341
 5492.21   137547   7800
 5494.28   137747   8155
 5496.44   137896   8383
 5498.67   138037   7821
 5500.98   139477   7471
 5503.36   140392   7281
 5505.83   139810   7160
 5508.36   140161   6827
 5510.98   132928   6387
 5513.67   132088   6578
 5516.44   131730   6828
 5519.28   131930   7315
 5522.2   132572   8099
 5525.2   134747   8906
 5528.27   137295   9584
 5531.42   138844   9713
 5534.65   140462   9100
 5537.95   142370   8247
 5541.33   141618   8221
 5544.79   143569   9186
 5548.32   144343   10343
 5551.93   144230   10897
 5555.61   145841   9894
 5559.38   142362   8050
 5563.21   141396   6993
 5567.13   143274   7096
 5571.12   142389   8095
 5575.19   142936   9617
 5579.33   141667   10440
 5583.56   143853   10670
 5587.85   144692   10697
 5592.23   146168   11291
 5596.68   142109   11371
 5601.21   139360   11049
 5605.81   144109   11167
 5610.49   144949   10721
 5615.25   146424   10563
 5620.08   147016   10015
 5624.99   147992   9536
 5629.98   144946   9826
 5635.04   142178   10595
 5640.18   144021   11560
 5645.39   148098   12329
 5650.69   145324   12440
 5656.06   145628   12839
 5661.5   144892   13141
 5667.02   147478   13981
 5672.62   149213   14324
 5678.3   145560   13527
 5684.05   148107   13170
 5689.88   150273   12783
 5695.78   148350   12347
 5701.76   147453   12719
 5707.82   149934   13989
 5713.95   143647   14119
 5720.17   146028   14642
 5726.45   146713   15074
 5732.82   148942   15529
 5739.26   148298   15612
 5745.77   147224   15898
 5752.37   146581   16115
 5759.04   146938   16221
 5765.78   151908   16575
 5772.61   154370   16706
 5779.51   156865   17008
 5786.48   149995   16507
 5793.53   149348   16825
 5800.66   151183   17546
 5807.87   153991   18478
 5815.15   157150   19240
 5822.51   160843   19949
 5829.94   156071   19648
 5837.45   158642   20257
 5845.04   164389   21201
 5852.71   167623   21936
 5860.45   162708   21555
 5868.27   165145   22023
 5876.16   172100   23157
 5884.13   157696   21591
 5892.18   155180   21706
 5900.3   158474   22566
 5908.5   156429   22649
 5916.78   152543   22510
 5925.13   144163   21579
 5933.56   148220   22515
 5942.07   162665   25153
 5950.65   156668   24661
 5959.31   151634   24250
 5968.05   143194   23184
 5976.86   159521   26139
 5985.75   156289   25954
 5994.71   154724   26084
 6003.75   154532   26474
 6012.87   154739   26966
 6022.07   153280   27137
 6031.34   150986   27150
 6040.69   153619   28068
 6050.11   157002   29097
 6059.61   162567   30637
 6069.19   153157   29317
 6078.84   156502   30413
 6088.57   161344   31816
 6098.38   161034   32213
 6108.27   168869   34270
 6118.23   153008   31482
 6128.26   151940   31703
 6138.38   148087   31366
 6148.57   150833   32447
 6158.83   153620   33567
 6169.17   153500   34070
 6179.59   148435   33478
 6190.09   151257   34651
 6200.66   146941   34195
 6211.31   153625   36291
 6222.04   149460   35869
 6232.84   151568   36941
 6243.72   152098   37647
 6254.67   150024   37713
 6265.7   150578   38451
 6276.81   146017   37862
 6287.99   146410   38575
 6299.26   150997   40420
 6310.59   152613   41509
 6322.01   154717   42768
 6333.5   154152   43304
 6345.06   156556   44666
 6356.71   148312   42977
 6368.43   147935   43513
 6380.22   149165   44541
 6392.1   141154   42818
 6404.05   141607   43623
 6416.07   146657   45858
 6428.18   146019   46376
 6440.36   147547   47593