Folder: xas-spectrum-structure-bench/exp_xaslib/raw

Note: README.md
# XAS Spectrum–Structure Benchmark

This project provides structured and AI-ready XAS (X-ray Absorption Spectroscopy) datasets along with processed and visualization files.

### Data Processing Workflow

1. **Raw Data**: All experimental spectra are sourced from [XASLIB](https://docs.xrayabsorption.org/xaslib/), stored in the `raw` folder (total 215 spectra). We acknowledge:  
   > "At this point, if you wish to cite the collection as a whole, simply use the URL https://xaslib.xrayabsorption.org and reference the work as belonging to the International X-ray Absorption Society. We will explore generating a DOI for the collection as a whole."

2. **Processing**: Background subtraction is applied using the `mbk` module of the [Larch Python library](https://github.com/LMGuo/larch), with results stored in the `processed` folder.

3. **Structure Labeling**: All samples have known chemical formulas, enabling derivation of local structure information such as central atom, oxidation state, and coordination number. This metadata is stored in `x_os_cn.csv`.

4. **AI-Ready Dataset**:  
   - `ai_ready_data.csv` contains spectrum–structure pairs.  
   - To standardize input dimensions while preserving spectral shape and energy range, all spectra are resampled to 500 points, resulting in `resampled_ai_ready_data.csv`.

5. **Benchmark Updates**: This benchmark will continue to expand, targeting ~4,000 spectrum–structure pairs in the final release.

### Acknowledgments

We sincerely thank Prof. Yang Bo, Prof. Huai Ping, Mentor. Lei Lei, and others for their guidance. This work was supported by the National Key Research and Development Program of China (2022YFA1503804) and the National Natural Science Foundation of China (22322302). We also appreciate the encouragement from the NeurIPS 2025 AI4Science Workshop reviewers.

File: Cu metal.xdi
#XDI/1.0  XASDataLibrary/1.0
# Column.1: energy eV
# Column.2: i0
# Column.3: itrans
# Mono.d_spacing: 3.134770
# Mono.name: None
# Beamline.name: APS 13-ID-E
# Element.symbol: Cu
# Element.edge: K
# Data.upload_date: 2020-05-17 13:26:30
# Data.submitted_by: Matt Newville
# Sample.name: Cu
# Sample.formula: Cu
# Sample.preparation: metal foil
# Sample.notes: sample for 'Cu_Foil_rt_2016Foils_13IDE_01.xdi', uploaded 2020-05-07 19:57:14, {"temperature": "room temperature"}
# Reference.mode: no reference spectra
# ///
#
#-----------------------
#   energy         i0            itrans
 8929   42443   120836
 8939   59961   170877
 8949   61851   176230
 8959   60110   170604
 8969   61731   172558
 8974.1   61165   166127
 8974.3   59226   160522
 8974.5   57316   154976
 8974.7   56750   153046
 8974.9   56489   151941
 8975.1   56434   151395
 8975.3   56045   149868
 8975.5   55890   148957
 8975.7   55831   148270
 8975.9   56003   148146
 8976.1   55995   147504
 8976.3   56074   147048
 8976.5   56480   147340
 8976.7   56627   146876
 8976.9   56592   145849
 8977.1   56653   144983
 8977.3   56694   143900
 8977.5   56790   142847
 8977.7   56929   141669
 8977.9   56928   139921
 8978.1   56735   137467
 8978.3   56472   134462
 8978.5   55886   130302
 8978.7   55890   127020
 8978.9   55914   123207
 8979.1   56064   118728
 8979.3   56189   113184
 8979.5   56208   106300
 8979.7   56309   98495
 8979.9   56438   90227
 8980.1   56610   81380
 8980.3   56460   72222
 8980.5   56616   64344
 8980.7   56564   57400
 8980.9   56694   51829
 8981.1   56614   47523
 8981.3   56556   44436
 8981.5   56634   42384
 8981.7   56112   40484
 8981.9   56134   39465
 8982.1   56076   38794
 8982.3   56148   38537
 8982.5   56272   38589
 8982.7   56383   38873
 8982.9   56182   39140
 8983.1   56123   39626
 8983.3   56292   40381
 8983.5   56344   41074
 8983.7   56453   41758
 8983.9   56425   42235
 8984.1   56324   42485
 8984.3   56485   42716
 8984.5   56109   42302
 8984.7   55883   41762
 8984.9   56033   41281
 8985.1   56090   40533
 8985.3   56278   39776
 8985.5   56418   38871
 8985.7   56403   37848
 8985.9   55892   36531
 8986.1   56018   35719
 8986.3   56106   34928
 8986.5   56186   34190
 8986.7   56278   33562
 8986.9   56393   32943
 8987.1   56579   32386
 8987.3   56458   31639
 8987.5   56604   31052
 8987.7   56593   30320
 8987.9   56352   29437
 8988.1   56392   28688
 8988.3   56506   27921
 8988.5   56490   27061
 8988.7   56572   26229
 8988.9   56666   25336
 8989.63   56624   21848
 8990.94   56763   15760
 8992.33   56884   10941
 8993.8   57305   8280
 8995.34   57223   7879
 8996.96   57578   9219
 8998.66   57550   10598
 9000.43   56053   10304
 9002.28   57921   8667
 9004.2   58152   7532
 9006.21   58148   8822
 9008.28   58232   10359
 9010.44   56962   11413
 9012.67   58624   12419
 9014.98   58719   12069
 9017.36   57489   10966
 9019.83   58711   9909
 9022.36   58802   8816
 9024.98   59157   7975
 9027.67   59393   7900
 9030.44   59205   8875
 9033.28   59464   10263
 9036.2   59120   10984
 9039.2   59524   11099
 9042.27   60506   10842
 9045.42   60150   10768
 9048.65   59602   10623
 9051.95   60545   10300
 9055.33   59206   10025
 9058.79   58097   9487
 9062.32   57003   8757
 9065.93   55210   8157
 9069.61   54400   7593
 9073.38   55128   7366
 9077.21   54965   7746
 9081.13   56115   8837
 9085.12   56280   9693
 9089.19   57238   10372
 9093.33   57270   10953
 9097.56   58579   12194
 9101.85   59421   12436
 9106.23   59919   11630
 9110.68   60207   10779
 9115.21   60563   10474
 9119.81   60599   10514
 9124.49   60875   9966
 9129.25   61200   8704
 9134.08   60898   8279
 9138.99   59650   8476
 9143.98   59541   9225
 9149.04   58103   10357
 9154.18   57791   12041
 9159.39   57329   13278
 9164.69   57773   12901
 9170.06   58044   11423
 9175.5   58411   10652
 9181.02   57208   10410
 9186.62   57215   10608
 9192.3   57574   10790
 9198.05   58373   11196
 9203.88   57989   10582
 9209.78   57823   9823
 9215.76   57869   9865
 9221.82   58112   10374
 9227.95   59120   11552
 9234.17   59009   12600
 9240.45   59239   13184
 9246.82   58317   12856
 9253.26   58706   12891
 9259.77   58702   12797
 9266.37   56291   12066
 9273.04   56585   11874
 9279.78   57275   11889
 9286.61   57907   11931
 9293.51   58714   12028
 9300.48   58485   12019
 9307.53   59183   12559
 9314.66   59058   13041
 9321.87   59021   13445
 9329.15   58900   13526
 9336.51   58881   13788
 9343.94   58772   14220
 9351.45   58557   14184
 9359.04   57818   14002
 9366.71   56672   13669
 9374.45   57423   13795
 9382.27   57617   13798
 9390.16   57524   13779
 9398.13   57002   13704
 9406.18   56689   13828
 9414.3   56122   14048
 9422.5   56311   14425
 9430.78   54237   14044
 9439.13   56005   14617
 9447.56   55171   14605
 9456.07   55873   15055
 9464.65   57386   15615
 9473.31   57124   15700
 9482.05   57401   15856
 9490.86   57445   15879
 9499.75   57477   15888
 9508.71   55945   15493
 9517.75   56279   15730
 9526.87   54185   15420
 9536.07   54162   15667
 9545.34   54457   15934
 9554.69   54848   16211
 9564.11   54255   16196
 9573.61   55165   16634
 9583.19   54688   16672
 9592.84   54451   16759
 9602.57   52441   16271
 9612.38   54252   16938
 9622.27   52614   16532
 9632.23   51804   16391
 9642.26   51993   16595
 9652.38   53907   17375
 9662.57   54278   17688
 9672.83   54321   17905
 9683.17   53888   17957
 9693.59   51774   17455
 9704.09   50823   17304
 9714.66   50485   17372
 9725.31   49526   17216
 9736.04   50337   17658
 9746.84   50135   17724
 9757.72   50468   17980
 9768.67   51877   18635
 9779.7   52579   19040
 9790.81   50161   18363
 9801.99   48192   17817
 9813.26   45921   17143
 9824.59   47709   17983
 9836.01   49373   18784
 9847.5   50956   19569
 9859.06   50359   19543
 9870.71   50272   19703
 9882.43   48100   19051
 9894.22   45550   18219
 9906.1   46049   18586
 9918.05   45873   18680
 9930.07   47715   19595
 9942.18   49467   20484
 9954.36   48143   20143

File: Fe metal.xdi
#XDI/1.0  XASDataLibrary/1.0
# Column.1: energy eV
# Column.2: i0
# Column.3: itrans
# Mono.d_spacing: 3.134770
# Mono.name: None
# Beamline.name: APS 13-ID-E
# Element.symbol: Fe
# Element.edge: K
# Data.upload_date: 2020-05-17 07:45:22
# Data.submitted_by: Matt Newville
# Sample.name: Fe foil  Room Temperature
# Sample.formula: Fe
# Sample.preparation: foil
# Sample.notes: sample for 'Fe_metal_rt_02.xdi', uploaded 2020-05-07 19:57:17, {"reference": "none", "temperature": "Room Temperature"}
# Reference.mode: no reference spectra
# ///
#
#-----------------------
#   energy         i0            itrans
 7062   43955   86833
 7072   44476   88157
 7082   43806   87045
 7092   43715   86846
 7102   48262   94989
 7107.1   39657   75968
 7107.3   38930   74396
 7107.5   38763   73877
 7107.7   38959   74016
 7107.9   39376   74564
 7108.1   39630   74754
 7108.3   39579   74322
 7108.5   39648   74057
 7108.7   40016   74290
 7108.9   40417   74500
 7109.1   40398   73823
 7109.3   40383   73011
 7109.5   40473   72159
 7109.7   40585   71084
 7109.9   41058   70257
 7110.1   41444   68776
 7110.3   41608   66377
 7110.5   41543   63152
 7110.7   41544   59694
 7110.9   41588   56301
 7111.1   41732   53250
 7111.3   40831   49311
 7111.5   41103   47254
 7111.7   41167   45363
 7111.9   41486   44060
 7112.1   41873   43098
 7112.3   41740   41738
 7112.5   41999   40891
 7112.7   42265   40104
 7112.9   42713   39530
 7113.1   42927   38785
 7113.3   43042   37967
 7113.5   43473   37493
 7113.7   43083   36403
 7113.9   43453   36039
 7114.1   43780   35727
 7114.3   43542   35046
 7114.5   43275   34437
 7114.7   43277   34119
 7114.9   43557   34089
 7115.1   43662   33969
 7115.3   43868   33976
 7115.5   43904   33852
 7115.7   43940   33725
 7115.9   44428   33915
 7116.1   44657   33838
 7116.3   44643   33493
 7116.5   44468   32905
 7116.7   44776   32547
 7116.9   44204   31422
 7117.1   44364   30707
 7117.3   44806   30081
 7117.5   45009   29214
 7117.7   45287   28345
 7117.9   45691   27541
 7118.1   45208   26200
 7118.3   45421   25298
 7118.5   45822   24519
 7118.7   46074   23676
 7118.9   46350   22856
 7119.1   46282   21878
 7119.3   46101   20885
 7119.5   45880   19899
 7119.7   45933   19051
 7119.9   46358   18389
 7120.1   46592   17683
 7120.3   46809   17013
 7120.5   47153   16444
 7120.7   47473   15918
 7120.9   47347   15286
 7121.1   46557   14511
 7121.3   47014   14181
 7121.5   47203   13800
 7121.7   47271   13423
 7121.9   47408   13092
 7122.63   48156   12167
 7123.94   49134   10934
 7125.33   49401   9838
 7126.8   50814   8877
 7128.34   50829   7352
 7129.96   51792   6309
 7131.66   53247   6804
 7133.43   53851   8320
 7135.28   54397   9448
 7137.2   55435   9684
 7139.21   56123   9149
 7141.28   56678   8904
 7143.44   57919   9318
 7145.67   59132   9310
 7147.98   59326   8459
 7150.36   59309   7917
 7152.83   58829   7637
 7155.36   59691   7877
 7157.98   58063   7817
 7160.67   57777   7822
 7163.44   56966   7916
 7166.28   57260   8157
 7169.2   54140   7871
 7172.2   53004   8096
 7175.27   50908   8434
 7178.42   49679   8852
 7181.65   48780   8767
 7184.95   50136   8677
 7188.33   50339   8047
 7191.79   50625   7388
 7195.32   51037   7295
 7198.93   51555   7974
 7202.61   52845   9178
 7206.38   53360   10206
 7210.21   54352   9729
 7214.13   54217   7537
 7218.12   54316   6054
 7222.19   53681   5918
 7226.33   54563   7254
 7230.56   54575   9110
 7234.85   53881   10648
 7239.23   55372   11415
 7243.68   59056   11498
 7248.21   56468   10329
 7252.81   52114   9713
 7257.49   48700   9298
 7262.25   47987   8788
 7267.08   48595   8586
 7271.99   50987   8361
 7276.98   53543   8371
 7282.04   55840   8342
 7287.18   58672   8337
 7292.39   60919   9238
 7297.69   62486   11003
 7303.06   63844   12530
 7308.5   62586   12886
 7314.02   63153   13004
 7319.62   64269   13312
 7325.3   59792   12437
 7331.05   54133   11397
 7336.88   54496   11846
 7342.78   56267   11976
 7348.76   58639   11493
 7354.82   58116   10581
 7360.95   57083   9833
 7367.17   56373   9604
 7373.45   57882   10577
 7379.82   58641   12461
 7386.26   61306   14381
 7392.77   59234   13769
 7399.37   55359   12656
 7406.04   54491   12500
 7412.78   52872   12088
 7419.61   54933   12657
 7426.51   54388   12901
 7433.48   53874   12783
 7440.53   57944   13391
 7447.66   61619   13636
 7454.87   63474   13925
 7462.15   65312   14517
 7469.51   64608   14985
 7476.94   68240   16564
 7484.45   61905   15572
 7492.04   55726   14584
 7499.71   56018   14774
 7507.45   58734   15384
 7515.27   59493   15710
 7523.16   64488   17172
 7531.13   62955   16747
 7539.18   61506   16468
 7547.3   64114   17354
 7555.5   64198   17318
 7563.78   60631   16186
 7572.13   66755   18081
 7580.56   56697   15906
 7589.07   62207   17901
 7597.65   64427   18695
 7606.31   67224   19702
 7615.05   68297   20378
 7623.86   68750   20585
 7632.75   69142   20865
 7641.71   70484   21706
 7650.75   66674   20856
 7659.87   61586   19409
 7669.07   62623   19746
 7678.34   62630   19741
 7687.69   64410   20440
 7697.11   67875   21884
 7706.61   65573   21452
 7716.19   60437   20113
 7725.84   60937   20565
 7735.57   61592   20977
 7745.38   64388   22161
 7755.27   66988   23272
 7765.23   70308   24761
 7775.26   73454   26252
 7785.38   71943   26006
 7795.57   69844   25498
 7805.83   66732   24546
 7816.17   69866   25901
 7826.59   72494   27134
 7837.09   64875   24503
 7847.66   66758   25489
 7858.31   67244   25976
 7869.04   63411   24827
 7879.84   60578   24028
 7890.72   62565   25124
 7901.67   68979   28035
 7912.7   69338   28503
 7923.81   70681   29379
 7934.99   70656   29675
 7946.26   73245   31033
 7957.59   71863   30747
 7969.01   66282   28636
 7980.5   63764   27793
 7992.06   64719   28524
 8003.71   65881   29358
 8015.43   65741   29627
 8027.22   66664   30386
 8039.1   68238   31474
 8051.05   64336   30024
 8069.12   63854   30341
 8081.26   68680   33024

File: Mo metal.xdi
#XDI/1.0  XASDataLibrary/1.0
# Column.1: energy eV
# Column.2: i0
# Column.3: itrans
# Mono.d_spacing: 3.134770
# Mono.name: None
# Beamline.name: APS 13-ID-E
# Element.symbol: Mo
# Element.edge: K
# Data.upload_date: 2020-05-17 13:40:13
# Data.submitted_by: Matt Newville
# Sample.name: Mo foil
# Sample.formula: Mo
# Sample.preparation: foil from standard foil box
# Reference.mode: no reference spectra
# ///
#
#-----------------------
#   energy         i0            itrans
 19950   14318   60410
 19960   14211   59634
 19970   14166   58938
 19980   14127   57908
 19990   14111   55718
 19990.4   14129   55640
 19990.8   14158   55572
 19991.2   14139   55325
 19991.6   14165   55242
 19992   14186   55109
 19992.4   14180   54862
 19992.8   14165   54576
 19993.2   14107   54091
 19993.6   14141   53920
 19994   14132   53556
 19994.4   14149   53277
 19994.8   14171   52958
 19995.2   14128   52351
 19995.6   14127   51846
 19996   14135   51328
 19996.4   14110   50603
 19996.8   14119   49913
 19997.2   14115   49067
 19997.6   14075   47994
 19998   14089   47024
 19998.4   14083   45782
 19998.8   14078   44431
 19999.2   14099   43067
 19999.6   14078   41478
 20000   14073   39936
 20000.4   14035   38336
 20001   14111   37111
 20001.4   14074   35140
 20001.8   14044   33918
 20002.2   14078   32967
 20002.6   14093   32066
 20003   14082   31144
 20003.4   14090   30324
 20003.8   14044   29397
 20004.2   14053   28605
 20004.6   14058   27822
 20005   14030   26983
 20005.4   14031   26208
 20005.8   14008   25417
 20006.2   14027   24757
 20006.6   14029   24040
 20007   13998   23307
 20007.4   14001   22661
 20007.8   13968   21958
 20008.2   14007   21380
 20008.6   14003   20737
 20009   13995   20071
 20009.4   13976   19363
 20009.8   13988   18661
 20010.2   13982   17922
 20010.6   13981   17145
 20011   13990   16425
 20011.4   13968   15614
 20011.8   13965   14863
 20012.2   13954   14132
 20012.6   13931   13442
 20013   13963   12882
 20013.4   13921   12306
 20013.8   13953   11880
 20014.2   13902   11447
 20014.6   13882   11113
 20015   13948   10910
 20015.4   13945   10721
 20015.8   13920   10554
 20016.2   13922   10463
 20016.6   13893   10401
 20017   13875   10395
 20017.4   13884   10461
 20017.8   13855   10542
 20018.2   13883   10714
 20018.6   13845   10871
 20019   13843   11079
 20019.4   13816   11264
 20019.8   13862   11523
 20020.9   13833   11982
 20022.7   13793   12144
 20024.6   13724   11704
 20026.6   13686   11234
 20028.6   13719   11119
 20030.8   13637   11108
 20033   13648   11068
 20035.2   13567   10685
 20037.6   13479   10198
 20040   13484   9770
 20042.5   13457   9279
 20045.1   13383   9071
 20047.8   13271   9516
 20050.5   13236   10316
 20053.3   13219   10885
 20056.2   13007   10885
 20059.2   13042   10751
 20062.3   12975   10403
 20065.4   12820   10170
 20068.6   12803   10264
 20071.8   12752   10410
 20075.2   12735   10557
 20078.6   12728   10465
 20082.1   12513   9867
 20085.7   12650   9511
 20089.3   12653   9423
 20093.1   12547   9767
 20096.9   12645   10401
 20100.8   12688   10625
 20104.7   12713   10526
 20108.8   12906   10588
 20112.9   12886   10530
 20117.1   12915   10492
 20121.3   13228   10545
 20125.7   13245   10264
 20130.1   13367   10241
 20134.6   13575   10621
 20139.2   13652   11046
 20143.8   13717   11568
 20148.5   13629   11771
 20153.3   13667   11867
 20158.2   13653   11876
 20163.1   13628   11667
 20168.2   13624   11453
 20173.3   13594   11324
 20178.5   13563   11344
 20183.7   13458   11090
 20189   13491   10572
 20194.5   13532   10280
 20199.9   13490   10444
 20205.5   13332   11022
 20211.1   13317   11919
 20216.9   13322   12449
 20222.6   13172   12092
 20228.5   13163   11814
 20234.5   13173   11756
 20240.5   13089   11457
 20246.6   13043   11041
 20252.7   13081   10739
 20259   13031   10594
 20265.3   12989   10555
 20271.7   12880   10491
 20278.2   12824   10641
 20284.8   13111   11246
 20291.4   12955   11547
 20298.1   13165   12004
 20304.9   13354   12362
 20311.7   13352   12167
 20318.7   13386   11842
 20325.7   13329   11479
 20332.8   13337   11266
 20339.9   13263   11103
 20347.2   13308   11166
 20354.5   13178   11213
 20361.9   13150   11277
 20369.4   12985   11222
 20376.9   12852   11387
 20384.5   12733   11401
 20392.2   12447   11124
 20400   12174   10915
 20407.8   12020   10786
 20415.8   11707   10362
 20423.8   11568   10209
 20431.9   11391   10095
 20440   11289   9997
 20448.2   10935   9569
 20456.5   10521   9136
 20464.9   10643   9316
 20473.4   11423   10052
 20481.9   11756   10503
 20490.5   12298   11077
 20499.2   12511   11233
 20508   12354   11064
 20516.8   11865   10645
 20525.8   11549   10402
 20534.8   12075   10904
 20543.8   12171   10938
 20553   12108   10859
 20562.2   12013   10820
 20571.5   11963   10749
 20580.9   11874   10578
 20590.3   11541   10168
 20599.9   11849   10527
 20609.5   11352   10241
 20619.2   11361   10374
 20628.9   10806   9879
 20638.7   11343   10413
 20648.7   11226   10340
 20658.6   11388   10407
 20668.7   11828   10755
 20678.8   12091   10987
 20689.1   12287   11169
 20699.4   12235   11095
 20709.7   12066   10902
 20720.2   11859   10739
 20730.7   11663   10630
 20741.3   11133   10223
 20752   10342   9557
 20762.7   10533   9759
 20773.5   10266   9582
 20784.4   9787   9145
 20795.4   9862   9149
 20806.5   9892   9101
 20817.6   9522   8783
 20828.8   10055   9290
 20840.1   10316   9506
 20851.5   11179   10309
 20862.9   11188   10356
 20874.4   11096   10333
 20886   11279   10555
 20897.7   11140   10472
 20909.4   10932   10289
 20921.2   10539   9887
 20933.1   10320   9655
 20945.1   10467   9798
 20957.1   10407   9763
 20969.3   9855   9258
 20975.4   10091   9469